Folder: NatMaterials_perovskiteNCs

Note: 515nm_AutoCorr.txt
TimeDelay	
-400.0000	0.0012740
-395.0000	0.0013224
-390.0000	0.0010150
-385.0000	0.0013312
-380.0000	0.0013805
-375.0000	0.0009950
-370.0000	0.0014045
-365.0000	0.0015514
-360.0000	0.0013929
-355.0000	0.0012732
-350.0000	0.0011379
-345.0000	0.0009534
-340.0000	0.0012016
-335.0000	0.0013100
-330.0000	0.0013749
-325.0000	0.0013685
-320.0000	0.0009742
-315.0000	0.0014057
-310.0000	0.0011451
-305.0000	0.0011927
-300.0000	0.0014701
-295.0000	0.0010995
-290.0000	0.0011487
-285.0000	0.0013308
-280.0000	0.0010194
-275.0000	0.0013801
-270.0000	0.0015158
-265.0000	0.0016370
-260.0000	0.0014713
-255.0000	0.0014169
-250.0000	0.0013168
-245.0000	0.0013336
-240.0000	0.0013653
-235.0000	0.0011671
-230.0000	0.0011339
-225.0000	0.0011203
-220.0000	0.0012792
-215.0000	0.0010467
-210.0000	0.0014997
-205.0000	0.0015822
-200.0000	0.0011607
-195.0000	0.0014789
-190.0000	0.0015130
-185.0000	0.0012360
-180.0000	0.0013641
-175.0000	0.0012956
-170.0000	0.0016639
-165.0000	0.0016823
-160.0000	0.0016510
-155.0000	0.0017607
-150.0000	0.0014857
-145.0000	0.0022987
-140.0000	0.0026601
-135.0000	0.0033994
-130.0000	0.0040954
-125.0000	0.0055652
-120.0000	0.0066195
-115.0000	0.0085587
-110.0000	0.0107753
-105.0000	0.0118536
-100.0000	0.0149088
-95.00000	0.0193641
-90.00000	0.0229844
-85.00000	0.0308255
-80.00000	0.0403020
-75.00000	0.0570241
-70.00000	0.0779148
-65.00000	0.1033688
-60.00000	0.1397652
-55.00000	0.1783725
-50.00000	0.2216245
-45.00000	0.2717034
-40.00000	0.3132287
-35.00000	0.3432406
-30.00000	0.3599354
-25.00000	0.3637887
-20.00000	0.3520131
-15.00000	0.3408687
-10.00000	0.3232456
-5.000000	0.3004973
0.0000000	0.2756744
5.0000000	0.2516156
10.000000	0.2163860
15.000000	0.1881901
20.000000	0.1556038
25.000000	0.1280724
30.000000	0.0979922
35.000000	0.0715827
40.000000	0.0497001
45.000000	0.0351039
50.000000	0.0246559
55.000000	0.0181597
60.000000	0.0137241
65.000000	0.0112112
70.000000	0.0088145
75.000000	0.0069064
80.000000	0.0058534
85.000000	0.0048179
90.000000	0.0036123
95.000000	0.0032697
100.00000	0.0026689
105.00000	0.0024844
110.00000	0.0022386
115.00000	0.0018148
120.00000	0.0020161
125.00000	0.0018372
130.00000	0.0017019
135.00000	0.0017759
140.00000	0.0013044
145.00000	0.0017539
150.00000	0.0011976
155.00000	0.0015638
160.00000	0.0015466
165.00000	0.0011215
170.00000	0.0015274
175.00000	0.0012796
180.00000	0.0012368
185.00000	0.0013789
190.00000	0.0015054
195.00000	0.0011523
200.00000	0.0014085
205.00000	0.0014949
210.00000	0.0015154
215.00000	0.0015054
220.00000	0.0015214
225.00000	0.0014493
230.00000	0.0014389
235.00000	0.0014565
240.00000	0.0010326
245.00000	0.0014125
250.00000	0.0016282
255.00000	0.0011951
260.00000	0.0012080
265.00000	0.0013833
270.00000	0.0014101
275.00000	0.0011583
280.00000	0.0013368
285.00000	0.0008521
290.00000	0.0013504
295.00000	0.0010210
300.00000	0.0009766
305.00000	0.0008577
310.00000	0.0009778
315.00000	0.0011755
320.00000	0.0014469
325.00000	0.0011988
330.00000	0.0012264
335.00000	0.0011891
340.00000	0.0010607
345.00000

Note: 800nm_AutoCorr.txt
TimeDelay	
-700.0000	0.0018668
-695.0000	0.0019672
-690.0000	0.0022446
-685.0000	0.0025648
-680.0000	0.0022418
-675.0000	0.0022646
-670.0000	0.0023891
-665.0000	0.0021730
-660.0000	0.0022506
-655.0000	0.0024488
-650.0000	0.0025408
-645.0000	0.0023851
-640.0000	0.0023403
-635.0000	0.0024636
-630.0000	0.0026005
-625.0000	0.0026077
-620.0000	0.0021690
-615.0000	0.0024047
-610.0000	0.0024227
-605.0000	0.0024800
-600.0000	0.0025452
-595.0000	0.0024884
-590.0000	0.0026501
-585.0000	0.0027874
-580.0000	0.0027902
-575.0000	0.0028158
-570.0000	0.0028906
-565.0000	0.0028426
-560.0000	0.0030235
-555.0000	0.0032145
-550.0000	0.0034130
-545.0000	0.0034966
-540.0000	0.0035058
-535.0000	0.0034686
-530.0000	0.0037396
-525.0000	0.0034290
-520.0000	0.0037424
-515.0000	0.0040430
-510.0000	0.0038245
-505.0000	0.0037964
-500.0000	0.0038649
-495.0000	0.0039753
-490.0000	0.0044953
-485.0000	0.0043944
-480.0000	0.0047042
-475.0000	0.0047551
-470.0000	0.0046294
-465.0000	0.0048343
-460.0000	0.0048655
-455.0000	0.0053410
-450.0000	0.0052290
-445.0000	0.0053050
-440.0000	0.0052822
-435.0000	0.0055552
-430.0000	0.0057277
-425.0000	0.0055127
-420.0000	0.0057505
-415.0000	0.0061139
-410.0000	0.0059014
-405.0000	0.0061584
-400.0000	0.0067107
-395.0000	0.0066747
-390.0000	0.0066627
-385.0000	0.0069273
-380.0000	0.0073415
-375.0000	0.0075312
-370.0000	0.0078394
-365.0000	0.0079563
-360.0000	0.0081721
-355.0000	0.0078883
-350.0000	0.0079511
-345.0000	0.0079071
-340.0000	0.0084166
-335.0000	0.0084346
-330.0000	0.0084546
-325.0000	0.0083734
-320.0000	0.0085551
-315.0000	0.0084342
-310.0000	0.0084943
-305.0000	0.0087208
-300.0000	0.0086532
-295.0000	0.0085923
-290.0000	0.0088545
-285.0000	0.0089942
-280.0000	0.0089970
-275.0000	0.0094709
-270.0000	0.0096630
-265.0000	0.0100849
-260.0000	0.0100097
-255.0000	0.0101257
-250.0000	0.0109851
-245.0000	0.0111376
-240.0000	0.0113341
-235.0000	0.0118564
-230.0000	0.0123003
-225.0000	0.0119809
-220.0000	0.0129908
-215.0000	0.0124048
-210.0000	0.0131649
-205.0000	0.0127895
-200.0000	0.0137585
-195.0000	0.0133110
-190.0000	0.0134379
-185.0000	0.0137929
-180.0000	0.0141407
-175.0000	0.0138846
-170.0000	0.0137709
-165.0000	0.0139818
-160.0000	0.0140519
-155.0000	0.0146190
-150.0000	0.0149160
-145.0000	0.0153559
-140.0000	0.0157173
-135.0000	0.0165267
-130.0000	0.0178647
-125.0000	0.0187129
-120.0000	0.0205625
-115.0000	0.0217993
-110.0000	0.0242309
-105.0000	0.0261073
-100.0000	0.0292733
-95.00000	0.0327900
-90.00000	0.0374298
-85.00000	0.0429225
-80.00000	0.0507988
-75.00000	0.0601917
-70.00000	0.0717000
-65.00000	0.0854204
-60.00000	0.1007219
-55.00000	0.1157556
-50.00000	0.1307521
-45.00000	0.1460793
-40.00000	0.1613479
-35.00000	0.1754707
-30.00000	0.1844429
-25.00000	0.1884062
-20.00000	0.1890050
-15.00000	0.1808173
-10.00000	0.1812984
-5.000000	0.1715045
0.0000000	0.1665381
5.0000000	0.1547813
10.000000	0.1469666
15.000000	0.1335556
20.000000	0.1233061
25.000000	0.1091101
30.000000	0.0938951
35.000000	0.0804912
40.000000	0.0672791
45.000000

Note: README.md
# NatMaterials_perovskiteNCs
Data for a Nature Materials Publication

File: CPB_NCs_TA_PumpSpectra.txt
Unit Serial No : EM0P1805-EU
Integration Time : 30 ms
Time Average: 1
Binning Average: 1
FFT Smoothing: 0%
Project Name : Project Name
Sample Name : 0003
Measurement No : 1
Measurement Time : 05/29/2014   15:45:22

Wavelength(nm)	Wavenumber(1/cm)	Intensity(Counts)
350.0000      	28571.4    	2451.33
352.5000      	28368.8    	2474.33
355.0000      	28169    	2439
357.5000      	27972    	2387.67
360.0000      	27777.8    	2443
362.5000      	27586.2    	2385.67
365.0000      	27397.3    	2523.33
367.5000      	27210.9    	2407.33
370.0000      	27027    	2503
372.5000      	26845.6    	2407.67
375.0000      	26666.7    	2480.67
377.5000      	26490.1    	2434.33
380.0000      	26315.8    	2559.67
382.5000      	26143.8    	2411.67
385.0000      	25974    	2440.67
387.5000      	25806.5    	2431.67
390.0000      	25641    	2554.67
392.5000      	25477.7    	2440
395.0000      	25316.5    	2465.67
397.5000      	25157.2    	2501.33
400.0000      	25000    	2728.67
402.5000      	24844.7    	5780.33
405.0000      	24691.4    	24551.7
407.5000      	24539.9    	43389.3
410.0000      	24390.2    	35317.7
412.5000      	24242.4    	11122.7
415.0000      	24096.4    	3435.67
417.5000      	23952.1    	2499
420.0000      	23809.5    	2389.33
422.5000      	23668.6    	2507.33
425.0000      	23529.4    	2459.33
427.5000      	23391.8    	2546
430.0000      	23255.8    	2434.67
432.5000      	23121.4    	2506.33
435.0000      	22988.5    	2421.67
437.5000      	22857.1    	2574.33
440.0000      	22727.3    	2434.67
442.5000      	22598.9    	2484.67
445.0000      	22471.9    	2423.33
447.5000      	22346.4    	2506.67
450.0000      	22222.2    	2437.67
452.5000      	22099.4    	2525
455.0000      	21978    	2404.67
457.5000      	21857.9    	2496
460.0000      	21739.1    	2416.67
462.5000      	21621.6    	2536
465.0000      	21505.4    	2409.67
467.5000      	21390.4    	2455.33
470.0000      	21276.6    	2475
472.5000      	21164    	2482
475.0000      	21052.6    	2478.67
477.5000      	20942.4    	2561.67
480.0000      	20833.3    	2520.67
482.5000      	20725.4    	2585
485.0000      	20618.6    	2607.33
487.5000      	20512.8    	2581
490.0000      	20408.2    	2589.67
492.5000      	20304.6    	2737.67
495.0000      	20202    	2799.33
497.5000      	20100.5    	3291.33
500.0000      	20000    	4881.67
502.5000      	19900.5    	6882.67
505.0000      	19802    	9628
507.5000      	19704.4    	12764.7
510.0000      	19607.8    	20529
512.5000      	19512.2    	31634.3
515.0000      	19417.5    	38159
517.5000      	19323.7    	34694.7
520.0000      	19230.8    	24175.3
522.5000      	19138.8    	14264.7
525.0000      	19047.6    	7865
527.5000      	18957.3    	5120.33
530.0000      	18867.9    	3776.33
532.5000      	18779.3    	2734.33
535.0000      	18691.6    	2635.67
537.5000      	18604.7    	2434.33
540.0000      	18518.5    	2523.67
542.5000      	18433.2    	2609
545.0000      	18348.6    	2877
547.5000      	18264.8    	2786
550.0000      	18181.8    	2641.33
552.5000      	18099.5    	2491.33
555.0000      	18018    	2563
557.5000      	17937.2    	2415
560.0000      	17857.1    	2482
562.5000      	17777.8    	2429.33
565.0000      	17699.1    	2528.67
567.5000      	17621.1    	2383.67
570.0000      	17543.9    	2487.33
572.5000      	17467.2    	2376
575.0000      	17391.3    	2483.33
577.5000      	17316    	2519.67
580.0000      	17241.4    	2666.33
582.5000      	17167.4    	2473.33
585.0000      	17094    	2525.33
587.5000      	17021.3    	2451.67
590.0000      	16949.2    	2617.67
592.5000      	16877.6    	2647
595.0000      	16806.7    	2921.33
597.5000      	16736.4    	2756
600.0000      	16666.7    	2729
602.5000      	16597.5    	2497.33
605.0000      	16528.9    	2508.67
607.5000      	16460.9    	2428.33
610.0000      	16393.4    	2559.67
612.5000      	16326.5    	2700.67
615.0000      	16260.2    	2674.33
617.5000      	16194.3    	2489.67
620.0000      	16129    	2541.33
622.5000      	16064.3    	2443.33
625.0000      	16000    	2506.67
627.5000      	15936.3    	2416.67
630.0000      	15873    	2503.67
632.5000      	15810.3    	2422.33
635.0000      	15748    	2509
637.5000      	15686.3    	2391
640.0000      	15625    	2444.67
642.5000      	15564.2    	2408.33
645.0000      	15503.9    	2448.67
647.5000      	15444    	2407.33
650.0000      	15384.6    	2438
652.5000      	15325.7    	2375.33
655.0000      	15267.2    	2505
657.5000      	15209.1    	2359.67
660.0000      	15151.5    	2491.33
662.5000      	15094.3    	2362
665.0000      	15037.6    	2513.33
667.5000      	14981.3    	2380
670.0000      	14925.4    	2489
672.5000      	14869.9    	2458.33
675.0000      	14814.8    	2486
677.5000      	14760.1    	2420.33
680.0000      	14705.9    	2524.67
682.5000      	14652    	2391.67
685.0000      	14598.5    	2412
687.5000      	14545.5    	2417.67
690.0000      	14492.8    	2465.33
692.5000      	14440.4    	2417.33
695.0000      	14388.5    	2473.67
697.5000      	14336.9    	2423.33
700.0000      	14285.7    	2432.67
702.5000      	14234.9    	2414.67
705.0000      	14184.4    	2492.33
707.5000      	14134.3    	2485.33
710.0000      	14084.5    	2428.33
712.5000      	14035.1    	2414.33
715.0000      	13986    	2414
717.5000      	13937.3    	2431.67
720.0000      	13888.9    	2455.33
722.5000      	13840.8    	2470.33
725.0000      	13793.1    	2388.67
727.5000      	13745.7    	2429.67
730.0000      	13698.6    	2424.67
732.5000      	13651.9    	2435.67
735.0000      	13605.4    	2433
737.5000      	13559.3    	2440
740.0000      	13513.5    	2390.67
742.5000      	13468    	2481
745.0000      	13422.8    	2424.67
747.5000      	13377.9    	2479.33
750.0000      	13333.3    	2408.33
752.5000      	13289    	2482
755.0000      	13245    	2359
757.5000      	13201.3    	2509.33
760.0000      	13157.9    	2391.33
762.5000      	13114.8    	2528.33
765.0000      	13071.9    	2404.67
767.5000      	13029.3    	2488
770.0000      	12987    	2367
772.5000      	12945    	2507
775.0000      	12903.2    	2388
777.5000      	12861.7    	2514.67
780.0000      	12820.5    	2425.67
782.5000      	12779.6    	2503.67
785.0000      	12738.9    	2409.33
787.5000      	12698.4    	2499.67
790.0000      	12658.2    	2353
792.5000      	12618.3    	2484
795.0000      	12578.6    	2364.33
797.5000      	12539.2    	2537.67
800.0000      	12500    	2427.67
802.5000      	12461.1    	2437.67
805.0000      	12422.4    	2436
807.5000      	12383.9    	2525.33
810.0000      	12345.7    	2857.67
812.5000      	12307.7    	3265.33
815.0000      	12269.9    	3642.33
817.5000      	12232.4    	3689.33
820.0000      	12195.1    	3622.33
822.5000      	12158.1    	3241.33
825.0000      	12121.2    	2903.33
827.5000      	12084.6    	2560
830.0000      	12048.2    	2509
832.5000      	12012    	2365.67
835.0000      	11976    	2403.67
837.5000      	11940.3    	2410
840.0000      	11904.8    	2403
842.5000      	11869.4    	2445.33
845.0000      	11834.3    	2454.67
847.5000      	11799.4    	2388.67
850.0000      	11764.7    	2445
852.5000      	11730.2    	2393.33
855.0000      	11695.9    	2475.33
857.5000      	11661.8    	2402.67
860.0000      	11627.9    	2496.67
862.5000      	11594.2    	2326
865.0000      	11560.7    	2472.33
867.5000      	11527.4    	2384.33
870.0000      	11494.3    	2483.67
872.5000      	11461.3    	2462
875.0000      	11428.6    	2503.33
877.5000      	11396    	2399.33
880.0000      	11363.6    	2475.33
882.5000      	11331.4    	2495.33
885.0000      	11299.4    	2342
887.5000      	11267.6    	2417.33
890.0000      	11236    	2392.33
892.5000      	11204.5    	2496.67
895.0000      	11173.2    	2369
897.5000      	11142.1    	2410
900.0000      	11111.1    	2406
902.5000      	11080.3    	2498.67
905.0000      	11049.7    	2389
907.5000      	11019.3    	2496
910.0000      	10989    	2396.67
912.5000      	10958.9    	2484.33
915.0000      	10929    	2379.33
917.5000      	10899.2    	2518.33
920.0000      	10869.6    	2373.67
922.5000      	10840.1    	2510.33
925.0000      	10810.8    	2408.33
927.5000      	10781.7    	2492.67
930.0000      	10752.7    	2377.33
932.5000      	10723.9    	2469
935.0000      	10695.2    	2413.33
937.5000      	10666.7    	2462
940.0000      	10638.3    	2376
942.5000      	10610.1    	2543
945.0000      	10582    	2435.67
947.5000      	10554.1    	2400.67
950.0000      	10526.3    	2470
952.5000      	10498.7    	2535.67
955.0000      	10471.2    	2499.67
957.5000      	10443.9    	2477
960.0000      	10416.7    	2428.33
962.5000      	10389.6    	2407.67
965.0000      	10362.7    	2451.67
967.5000      	10335.9    	2414.33
970.0000      	10309.3    	2471.33
972.5000      	10282.8    	2408.67
975.0000      	10256.4    	2505.67
977.5000      	10230.2    	2452.67
980.0000      	10204.1    	2470.33
982.5000      	10178.1    	2436.33
985.0000      	10152.3    	2518.33
987.5000      	10126.6    	2442
990.0000      	10101    	2451.33
992.5000      	10075.6    	2404.67
995.0000      	10050.3    	2507.33
997.5000      	10025.1    	2423.67
1000     	10000    	2468

File: DS43_linears_2018-05-29.csv
DS43,,DS43_PL1,,DS43_PLE_490,,DS43_PLE_500,,DS43_PLE_510,,DS43_PLE_520,,DS43_PLE_530,
Wavelength (nm),Abs,Wavelength (nm),Intensity (a.u.),Wavelength (nm),Intensity (a.u.),Wavelength (nm),Intensity (a.u.),Wavelength (nm),Intensity (a.u.),Wavelength (nm),Intensity (a.u.),Wavelength (nm),Intensity (a.u.)
750,0.007411284,460,0.177312,350,32.1596,350,162.963,350,472.988,350,224.532,350,62.6579
747.5,0.006916428,462.53,0.139878,352.46,31.0203,352.46,157.861,352.46,464.733,352.46,219.819,352.46,63.1319
745,0.007865002,465.07,0.341163,355.07,30.3455,355.07,154.354,355.07,449.27,355.07,215.348,355.07,61.749
742.5,0.007206289,467.46,0.422149,357.53,28.9323,357.53,151.741,357.53,443.99,357.53,209.566,357.53,59.4902
740,0.006945387,470,0.639925,360,28.4841,360,146.391,360,424.738,360,200.359,360,57.8794
737.5,0.005818231,472.57,0.9381724,362.46,28.0073,362.46,144.023,362.46,418.513,362.46,199.481,362.46,56.5015
735,0.007513489,475,1.40028,365.07,25.8001,365.07,135.242,365.07,393.428,365.07,186.051,365.07,52.8465
732.5,0.007642457,477.57,2.22266,367.53,24.9255,367.53,129.261,367.53,376.361,367.53,179.385,367.53,51.1384
730,0.007158733,480,3.28947,370,24.4602,370,122.163,370,356.151,370,169.459,370,48.0692
727.5,0.007653681,482.53,5.11867,372.46,23.6828,372.46,118.822,372.46,348.972,372.46,164.674,372.46,46.6816
725,0.007205605,485.07,7.89575,375.07,22.9232,375.07,116.043,375.07,335.95,375.07,159.423,375.07,45.225
722.5,0.008056543,487.46,12.1598,377.53,22.4155,377.53,112.951,377.53,329.959,377.53,155.281,377.53,45.098
720,0.007760317,490,18.7701,380,22.0544,380,110.485,380,320.85,380,151.134,380,43.3652
717.5,0.007578548,492.53,29.3941,382.46,21.461,382.46,109.213,382.46,313.014,382.46,148.003,382.46,42.3727
715,0.006853178,495.07,43.4287,385.07,20.86903,385.07,106.349,385.07,307.771,385.07,144.527,385.07,41.1102
712.5,0.007127392,497.46,63.9921,387.53,20.4095,387.53,104.181,387.53,301.126,387.53,142.408,387.53,41.1287
710,0.007905755,500,95.4256,390,20.0808,390,101.575,390,294.647,390,139.106,390,39.8057
707.5,0.00743738,502.53,140.02,392.57,20.2116,392.57,100.305,392.57,291.066,392.57,137.19,392.57,39.0402
705,0.006695736,505.07,196.119,395,19.6821,395,100.485,395,286.43,395,135.333,395,38.5988
702.5,0.006711588,507.46,248.92,397.57,19.4953,397.57,97.0486,397.57,279.152,397.57,133.234,397.57,36.8987
700,0.007263985,510,275.842,400,18.6246,400,96.2537,400,277.01,400,130.495,400,37.0168
697.5,0.007180471,512.53,265.978,402.46,18.418,402.46,93.5772,402.46,271.234,402.46,127.482,402.46,36.5279
695,0.006625789,515.07,221.232,405.07,18.372,405.07,93.0981,405.07,269.58,405.07,127.593,405.07,36.3096
692.5,0.007393879,517.46,175.091,407.53,17.4584,407.53,89.4664,407.53,260.191,407.53,123.685,407.53,35.0751
690,0.006951463,520,132.553,410,16.9109,410,86.6546,410,253.437,410,119.47,410,34.5145
687.5,0.007001917,522.5,96.2139,412.57,16.6272,412.57,83.4656,412.57,242.882,412.57,114.045,412.57,32.9027
685,0.007325504,525,70.261,415,15.9208,415,79.6503,415,234.335,415,109.601,415,31.397
682.5,0.007730171,527.5,51.3237,417.57,15.0723,417.57,76.228,417.57,223.323,417.57,105.224,417.57,30.1343
680,0.008358539,530,37.47,420,15.0113,420,75.6458,420,217.431,420,102.229,420,29.5116
677.5,0.007547203,532.53,27.9638,422.46,14.6267,422.46,73.2793,422.46,214.187,422.46,101.478,422.46,28.8783
675,0.007807596,535.07,20.8535,425.07,14.2639,425.07,72.7106,425.07,209.751,425.07,99.2704,425.07,28.5371
672.5,0.008185936,537.46,15.3766,427.53,14.1379,427.53,70.4864,427.53,206.097,427.53,97.7034,427.53,27.6044
670,0.006958224,540,11.5889,430,13.1156,430,69.6971,430,201.552,430,95.7663,430,27.1886
667.5,0.007557685,542.5,8.51051,432.57,13.6789,432.57,68.7677,432.57,198.757,432.57,94.0991,432.57,26.84
665,0.008149509,545,6.10064,435,13.4002,435,67.3999,435,195.29,435,93.1656,435,26.6201
662.5,0.006922241,547.5,4.66284,437.57,13.3001,437.57,66.1212,437.57,192.697,437.57,91.7661,437.57,26.0728
660,0.007141207,550,3.53336,440,13.0654,440,64.6793,440,190.417,440,91.2239,440,25.7555
657.5,0.006795984,552.53,2.60388,442.57,12.8974,442.57,65.2007,442.57,189.225,442.57,89.9154,442.57,25.4643
655,0.00737379,555.07,1.8399,445,12.6046,445,63.9091,445,186.592,445,89.1773,445,25.3884
652.5,0.007248112,557.46,1.36377,447.57,12.6303,447.57,64.0764,447.57,187.077,447.57,88.6051,447.57,25.4839
650,0.007124313,560,1.08611,450,12.527,450,64.2871,450,184.843,450,87.6823,450,25.1287
647.5,0.007867243,562.5,0.812207,452.57,12.3762,452.57,63.0149,452.57,187.428,452.57,87.9904,452.57,25.4987
645,0.007770278,565,0.621968,455,12.2621,455,63.1972,455,186.204,455,88.1085,455,25.2062
642.5,0.007533348,567.5,0.404568,457.57,12.1853,457.57,63.4064,457.57,183.387,457.57,87.0011,457.57,24.8358
640,0.007063058,570,0.394494,460,12.2834,460,62.7238,460,183.496,460,88.3986,460,25.1777
637.5,0.007918857,572.46,0.288401,462.53,12.333,462.53,63.1482,462.53,182.876,462.53,87.941,462.53,24.948
635,0.007323451,575.07,0.232688,465.07,12.4293,465.07,62.8816,465.07,183.248,465.07,86.9896,465.07,24.6456
632.5,0.008553782,577.53,0.245341,467.46,11.9158,467.46,62.4658,467.46,184.22,467.46,88.1992,467.46,24.432
630,0.008262151,580,0.250203,470,12.3753,470,62.485,470,182.559,470,86.2007,470,24.7654
627.5,0.007513963,,,,,472.57,61.6744,472.57,182.082,472.57,86.1055,472.57,24.7648
625,0.007883507,,,,,475,61.1845,475,179.871,475,85.9214,475,24.9418
622.5,0.007343776,,,,,477.57,59.9659,477.57,178.26,477.57,85.2673,477.57,24.6449
620,0.007707694,,,,,480,60.4096,480,176.504,480,83.7487,480,24.0542
617.5,0.007846604,,,,,482.57,59.9175,482.57,173.107,482.57,82.3964,482.57,23.9286
615,0.007770278,,,,,485,61.4549,485,179.711,485,85.6125,485,24.4492
612.5,0.008824,,,,,487.57,60.2035,487.57,178.346,487.57,84.215,487.57,23.7612
610,0.006878477,,,,,490,59.9938,490,177.355,490,83.9411,490,23.7667
607.5,0.007310841,,,,,,,492.53,177.284,492.53,85.0415,492.53,24.1056
605,0.008175122,,,,,,,495.07,169.049,495.07,80.7188,495.07,23.2395
602.5,0.008387674,,,,,,,497.46,164.541,497.46,78.3225,497.46,22.6883
600,0.007765456,,,,,,,500,161.497,500,78.0372,500,21.4922
597.5,0.007737022,,,,,,,,,502.53,76.4317,502.53,21.7497
595,0.00834297,,,,,,,,,505.07,73.9691,505.07,21.3905
592.5,0.007767142,,,,,,,,,507.46,65.8098,507.46,18.4066
590,0.008612608,,,,,,,,,510,51.9673,510,14.8367
587.5,0.008565505,,,,,,,,,,,512.53,9.77391
585,0.008579234,,,,,,,,,,,515.07,6.14751
582.5,0.008291094,,,,,,,,,,,517.46,3.1128
580,0.007930061,,,,,,,,,,,520,1.68593
577.5,0.008208121,,,,,,,,,,,,
575,0.009207563,,,,,,,,,,,,
572.5,0.009157541,,,,,,,,,,,,
570,0.00860355,,,,,,,,,,,,
567.5,0.009101841,,,,,,,,,,,,
565,0.009029469,,,,,,,,,,,,
562.5,0.008920276,,,,,,,,,,,,
560,0.009821182,,,,,,,,,,,,
557.5,0.008828993,,,,,,,,,,,,
555,0.00886516,,,,,,,,,,,,
552.5,0.008893509,,,,,,,,,,,,
550,0.009165816,,,,,,,,,,,,
547.5,0.00943369,,,,,,,,,,,,
545,0.009168222,,,,,,,,,,,,
542.5,0.009279621,,,,,,,,,,,,
540,0.009196829,,,,,,,,,,,,
537.5,0.00985428,,,,,,,,,,,,
535,0.009060975,,,,,,,,,,,,
532.5,0.009036791,,,,,,,,,,,,
530,0.009466575,,,,,,,,,,,,
527.5,0.009461653,,,,,,,,,,,,
525,0.009886535,,,,,,,,,,,,
522.5,0.009097849,,,,,,,,,,,,
520,0.01050419,,,,,,,,,,,,
517.5,0.0112175,,,,,,,,,,,,
515,0.01353726,,,,,,,,,,,,
512.5,0.0172144,,,,,,,,,,,,
510,0.0214999,,,,,,,,,,,,
507.5,0.0264813,,,,,,,,,,,,
505,0.0300217,,,,,,,,,,,,
502.5,0.0305181,,,,,,,,,,,,
500,0.03130731,,,,,,,,,,,,
497.5,0.0315542,,,,,,,,,,,,
495,0.0333214,,,,,,,,,,,,
492.5,0.0340649,,,,,,,,,,,,
490,0.034051,,,,,,,,,,,,
487.5,0.0352327,,,,,,,,,,,,
485,0.0344457,,,,,,,,,,,,
482.5,0.0353767,,,,,,,,,,,,
480,0.0352976,,,,,,,,,,,,
477.5,0.03557609,,,,,,,,,,,,
475,0.0356853,,,,,,,,,,,,
472.5,0.0369009,,,,,,,,,,,,
470,0.0370559,,,,,,,,,,,,
467.5,0.0374077,,,,,,,,,,,,
465,0.0381618,,,,,,,,,,,,
462.5,0.03817074,,,,,,,,,,,,
460,0.0393779,,,,,,,,,,,,
457.5,0.0392344,,,,,,,,,,,,
455,0.0406977,,,,,,,,,,,,
452.5,0.0408109,,,,,,,,,,,,
450,0.0416326,,,,,,,,,,,,
447.5,0.04207851,,,,,,,,,,,,
445,0.0420461,,,,,,,,,,,,
442.5,0.0442856,,,,,,,,,,,,
440,0.0440946,,,,,,,,,,,,
437.5,0.0448032,,,,,,,,,,,,
435,0.0459524,,,,,,,,,,,,
432.5,0.0463221,,,,,,,,,,,,
430,0.0483272,,,,,,,,,,,,
427.5,0.04907874,,,,,,,,,,,,
425,0.050772,,,,,,,,,,,,
422.5,0.0509029,,,,,,,,,,,,
420,0.0522869,,,,,,,,,,,,
417.5,0.0537248,,,,,,,,,,,,
415,0.0558872,,,,,,,,,,,,
412.5,0.05790773,,,,,,,,,,,,
410,0.06030428,,,,,,,,,,,,
407.5,0.0621018,,,,,,,,,,,,
405,0.0632687,,,,,,,,,,,,
402.5,0.065263,,,,,,,,,,,,
400,0.065606,,,,,,,,,,,,
397.5,0.0668386,,,,,,,,,,,,
395,0.0687616,,,,,,,,,,,,
392.5,0.06836392,,,,,,,,,,,,
390,0.0699887,,,,,,,,,,,,
387.5,0.0708015,,,,,,,,,,,,
385,0.0728668,,,,,,,,,,,,
382.5,0.07452134,,,,,,,,,,,,
380,0.0770544,,,,,,,,,,,,
377.5,0.07821279,,,,,,,,,,,,
375,0.080293,,,,,,,,,,,,
372.5,0.0835687,,,,,,,,,,,,
370,0.0856129,,,,,,,,,,,,
367.5,0.0888618,,,,,,,,,,,,
365,0.0931535,,,,,,,,,,,,
362.5,0.0974698,,,,,,,,,,,,
360,0.101125,,,,,,,,,,,,
357.5,0.103838,,,,,,,,,,,,
355,0.105759,,,,,,,,,,,,
352.5,0.107576,,,,,,,,,,,,
350,0.111365,,,,,,,,,,,,