Folder: NatMaterials_perovskiteNCs/RawData

Note: README.md
# NatMaterials_perovskiteNCs
Data for a Nature Materials Publication

File: CPB_NCs_PLandPLE.csv
DS43_PL1,,DS43_PLE_490,,DS43_PLE_500,,DS43_PLE_510,,DS43_PLE_520,,DS43_PLE_530,
Wavelength (nm),Intensity (a.u.),Wavelength (nm),Intensity (a.u.),Wavelength (nm),Intensity (a.u.),Wavelength (nm),Intensity (a.u.),Wavelength (nm),Intensity (a.u.),Wavelength (nm),Intensity (a.u.)
460,0.177312,350,32.1596,350,162.963,350,472.988,350,224.532,350,62.6579
461.49,0.200088,351.53,31.0803,351.53,159.156,351.53,467.943,351.53,222.905,351.53,62.0585
462.98,0.210907,353.07,30.5799,353.07,157.153,353.07,460.629,353.07,217.236,353.07,62.4746
464.47,0.274009,354.46,30.2724,354.46,156.264,354.46,452.525,354.46,214.658,354.46,60.7606
465.97,0.335591,356,29.979,356,153.659,356,446.968,356,211.097,356,60.1349
467.46,0.422149,357.53,28.9323,357.53,151.741,357.53,443.99,357.53,209.566,357.53,59.4902
468.95,0.456584,359.07,29.2052,359.07,148.839,359.07,434.421,359.07,205.743,359.07,59.382
470.45,0.766093,360.46,29.0132,360.46,145.042,360.46,423.63,360.46,198.465,360.46,57.4553
471.96,0.894245,362,28.4798,362,143.877,362,420.241,362,198.071,362,56.4898
473.48,1.09417,363.53,27.6803,363.53,140.382,363.53,409.257,363.53,195.163,363.53,55.2396
475,1.40028,365.07,25.8001,365.07,135.242,365.07,393.428,365.07,186.051,365.07,52.8465
476.51,1.85519,366.46,25.9555,366.46,131.938,366.46,380.456,366.46,182.415,366.46,52.0822
478.03,2.20778,368,25.6736,368,127.43,368,375.425,368,177.492,368,50.1285
479.54,2.94611,369.53,23.9386,369.53,123.715,369.53,363.402,369.53,171.338,369.53,48.3092
481.04,4.04854,371.07,23.9475,371.07,121.181,371.07,353.387,371.07,169.368,371.07,48.7589
482.53,5.11867,372.46,23.6828,372.46,118.822,372.46,348.972,372.46,164.674,372.46,46.6816
484.02,6.602,374,23.2053,374,116.599,374,340.439,374,160.7,374,45.9968
485.52,8.5588,375.53,22.9258,375.53,114.821,375.53,332.61,375.53,159.488,375.53,45.2244
487.01,11.5746,377.07,22.4933,377.07,114.832,377.07,330.472,377.07,156.133,377.07,44.622
488.5,14.5528,378.46,22.3144,378.46,112.561,378.46,331.815,378.46,155.901,378.46,44.1255
490,18.7701,380,22.0544,380,110.485,380,320.85,380,151.134,380,43.3652
491.49,24.2719,381.53,21.576,381.53,110.336,381.53,314.737,381.53,149.821,381.53,42.039
492.98,31.9867,383.07,22.0947,383.07,106.792,383.07,311.39,383.07,147.217,383.07,42.5619
494.47,39.9415,384.46,21.3771,384.46,107.131,384.46,308.722,384.46,146.875,384.46,42.5379
495.97,50.412,386,20.4643,386,104.93,386,305.713,386,144.018,386,40.7978
497.46,63.9921,387.53,20.4095,387.53,104.181,387.53,301.126,387.53,142.408,387.53,41.1287
498.95,81.5452,389.07,20.2671,389.07,104.092,389.07,298.833,389.07,141.864,389.07,40.8867
500.44,102.427,390.45,20.1483,390.45,101.153,390.45,291.556,390.45,137.374,390.45,39.0843
501.94,126.847,391.96,20.296,391.96,101.053,391.96,292.814,391.96,138.32,391.96,39.329
503.43,159.467,393.48,20.0852,393.48,99.5345,393.48,287.122,393.48,136.057,393.48,39.1692
505.07,196.119,395,19.6821,395,100.485,395,286.43,395,135.333,395,38.5988
506.56,227.336,396.51,19.5736,396.51,96.4994,396.51,282.752,396.51,134.978,396.51,37.9914
508.05,255.883,398.03,19.2139,398.03,96.3705,398.03,277.44,398.03,131.171,398.03,36.8217
509.55,271.145,399.54,18.9237,399.54,96.0765,399.54,276.275,399.54,131.08,399.54,37.8478
511.04,274.352,401.07,19.0716,401.07,94.175,401.07,274.435,401.07,129.235,401.07,37.2743
512.53,265.978,402.46,18.418,402.46,93.5772,402.46,271.234,402.46,127.482,402.46,36.5279
514.02,239.752,404,18.4312,404,92.3062,404,267.767,404,126.461,404,36.2168
515.52,210.727,405.53,17.9773,405.53,92.6587,405.53,269.18,405.53,126.016,405.53,36.6669
517.01,181.966,407.07,18.0389,407.07,89.9945,407.07,263.152,407.07,124.118,407.07,35.074
518.5,156.865,408.46,17.8283,408.46,89.2734,408.46,256.408,408.46,120.831,408.46,34.79
520,132.553,410,16.9109,410,86.6546,410,253.437,410,119.47,410,34.5145
521.47,108.711,411.51,17.0937,411.51,85.1303,411.51,247.064,411.51,116.218,411.51,33.7251
522.94,90.7703,413.03,16.5068,413.03,82.9516,413.03,238.551,413.03,113.252,413.03,31.9952
524.55,75.6364,414.54,16.108,414.54,80.5817,414.54,234.715,414.54,110.778,414.54,31.5853
526.02,61.5016,416.06,15.9651,416.06,78.6728,416.06,227.692,416.06,107.899,416.06,31.0948
527.5,51.3237,417.57,15.0723,417.57,76.228,417.57,223.323,417.57,105.224,417.57,30.1343
528.97,42.9107,418.93,14.9143,418.93,75.8695,418.93,220.467,418.93,104.52,418.93,29.4986
530.44,36.2875,420.46,14.6795,420.46,74.6883,420.46,215.252,420.46,102.52,420.46,29.0986
531.94,29.9059,422,14.437,422,74.5988,422,215.675,422,102.285,422,28.9647
533.43,25.3178,423.53,14.4916,423.53,72.7676,423.53,211.913,423.53,99.6781,423.53,28.7114
535.07,20.8535,425.07,14.2639,425.07,72.7106,425.07,209.751,425.07,99.2704,425.07,28.5371
536.56,17.4335,426.46,14.267,426.46,71.7222,426.46,207.834,426.46,98.2948,426.46,28.0635
538.05,14.4561,428,14.11,428,70.4665,428,204.443,428,96.79,428,27.7991
539.55,11.4639,429.53,14.0806,429.53,69.4761,429.53,201.767,429.53,96.6287,429.53,27.371
541.02,10.0532,431.06,13.6902,431.06,69.467,431.06,200.757,431.06,95.4528,431.06,27.0537
542.5,8.51051,432.57,13.6789,432.57,68.7677,432.57,198.757,432.57,94.0991,432.57,26.84
543.97,6.8981,433.93,13.3575,433.93,67.7989,433.93,195.832,433.93,94.5098,433.93,26.6102
545.44,6.04936,435.45,13.5362,435.45,66.6833,435.45,195.882,435.45,92.57,435.45,26.0888
547.05,4.90775,436.96,12.992,436.96,66.5694,436.96,192.899,436.96,91.3487,436.96,26.3597
548.52,4.07548,438.48,13.2078,438.48,66.0538,438.48,191.423,438.48,90.8565,438.48,25.814
550,3.53336,440,13.0654,440,64.6793,440,190.417,440,91.2239,440,25.7555
551.49,2.84293,441.51,13.0135,441.51,65.7835,441.51,191.203,441.51,89.4118,441.51,25.886
552.98,2.49349,443.03,13.0601,443.03,64.4651,443.03,189.424,443.03,89.5471,443.03,25.6751
554.47,2.04745,444.54,12.7166,444.54,64.4285,444.54,187.942,444.54,88.8373,444.54,25.3542
555.97,1.61462,446.06,13.0217,446.06,63.8843,446.06,186.33,446.06,88.7338,446.06,25.4261
557.46,1.36377,447.57,12.6303,447.57,64.0764,447.57,187.077,447.57,88.6051,447.57,25.4839
558.95,1.29652,448.93,12.4716,448.93,64.2784,448.93,187.347,448.93,89.0979,448.93,25.1493
560.44,1.15315,450.45,12.4155,450.45,64.1723,450.45,184.103,450.45,87.8771,450.45,25.2402
562.05,0.795101,451.96,12.4499,451.96,62.7964,451.96,185.433,451.96,87.2139,451.96,25.3754
563.52,0.622862,453.48,12.5566,453.48,63.813,453.48,185.005,453.48,88.2238,453.48,25.2302
565,0.621968,455,12.2621,455,63.1972,455,186.204,455,88.1085,455,25.2062
566.47,0.504879,456.51,12.3935,456.51,62.7207,456.51,183.999,456.51,87.6157,456.51,25.0106
567.94,0.400822,458.03,12.1887,458.03,62.288,458.03,182.842,458.03,85.7175,458.03,24.5907
569.55,0.454724,459.54,12.16784,459.54,62.5173,459.54,184.724,459.54,87.8997,459.54,24.9456
571.01,0.247074,461.04,12.5043,461.04,63.8274,461.04,184.851,461.04,88.2845,461.04,25.1061
572.46,0.288401,462.53,12.333,462.53,63.1482,462.53,182.876,462.53,87.941,462.53,24.948
574.05,0.264018,464.02,12.1944,464.02,61.9522,464.02,184.365,464.02,87.5896,464.02,25.0731
575.5,0.213293,465.52,12.2781,465.52,63.7504,465.52,183.64,465.52,87.0295,465.52,25.1502
576.95,0.17268,467.01,12.239,467.01,61.6323,467.01,183.524,467.01,86.8244,467.01,24.4106
578.55,0.173074,468.5,12.0995,468.5,61.7392,468.5,183.077,468.5,87.2474,468.5,25.0417
580,0.250203,470,12.3753,470,62.485,470,182.559,470,86.2007,470,24.7654
,,,,471.51,62.0235,471.51,183.891,471.51,87.1948,471.51,24.2097
,,,,473.03,60.7676,473.03,181.57,473.03,86.4782,473.03,24.3361
,,,,474.54,60.631,474.54,179.706,474.54,85.7621,474.54,24.6212
,,,,476.06,60.7282,476.06,179.917,476.06,85.3363,476.06,24.7494
,,,,477.57,59.9659,477.57,178.26,477.57,85.2673,477.57,24.6449
,,,,478.93,60.362,478.93,178.341,478.93,85.2895,478.93,24.1728
,,,,480.45,60.7751,480.45,175.622,480.45,83.0048,480.45,23.7821
,,,,481.96,58.6573,481.96,172.749,481.96,82.8899,481.96,23.6106
,,,,483.48,60.0279,483.48,175.752,483.48,83.5098,483.48,23.8129
,,,,485,61.4549,485,179.711,485,85.6125,485,24.4492
,,,,486.51,59.8371,486.51,177.18,486.51,83.6921,486.51,23.9869
,,,,488.03,61.0919,488.03,178.943,488.03,84.7824,488.03,23.9784
,,,,489.54,60.6954,489.54,178.27,489.54,84.8485,489.54,24.4135
,,,,,,491.04,174.114,491.04,83.5705,491.04,23.6304
,,,,,,492.53,177.284,492.53,85.0415,492.53,24.1056
,,,,,,494.02,174.181,494.02,83.2076,494.02,24.1136
,,,,,,495.52,166.145,495.52,80.0254,495.52,22.8222
,,,,,,497.01,163.833,497.01,79.3131,497.01,22.7177
,,,,,,498.5,161.724,498.5,77.5571,498.5,22.2919
,,,,,,500,161.497,500,78.0372,500,21.4922
,,,,,,,,501.49,76.6006,501.49,21.7059
,,,,,,,,502.98,75.2295,502.98,21.0414
,,,,,,,,504.47,74.8365,504.47,21.5672
,,,,,,,,505.97,70.6747,505.97,20.4978
,,,,,,,,507.46,65.8098,507.46,18.4066
,,,,,,,,508.95,57.7732,508.95,17.3155
,,,,,,,,,,510.44,13.5244
,,,,,,,,,,511.94,11.4532
,,,,,,,,,,513.43,8.29699
,,,,,,,,,,515.07,6.14751
,,,,,,,,,,516.56,3.93074
,,,,,,,,,,518.05,2.4255
,,,,,,,,,,519.55,2.14997
,,,,,,,,,,520,1.68593